Folder: eds-analysis-final/data/2022-09-06_EDS-SEM-APREO

Note: README.md
# eds-analysis-final
Selected code from eds-analysis

File: Al_30kV.emsa
#FORMAT      : EMSA/MAS Spectral Data File
#VERSION     : 1.0
#TITLE       : Fe_30kV
#DATE        : 06-SEP-2022
#TIME        : 17:40
#OWNER       :
#NPOINTS     : 2048.0
#NCOLUMNS    : 1.0
#XUNITS      : keV
#YUNITS      : counts
#DATATYPE    : XY
#XPERCHAN    : 0.01
#OFFSET      : -0.2
#SIGNALTYPE  : EDS
#CHOFFSET    : 20.0
#LIVETIME    : 120.0
#REALTIME    : 154.287
#BEAMKV      : 30.0
#MAGCAM      : 1566.0
#XTILTSTGE   : 0.0
#AZIMANGLE   : 0.0
#ELEVANGLE   : 35.0
#XPOSITION mm: 24.6591
#YPOSITION mm: 14.8393
#ZPOSITION mm: 9.9088
##OXINSTPT   : 5
##OXINSTSTROB: 36.12
##OXINSTNDET : 1
##OXINSTELEMS: 26,13
##OXINSTLABEL: 26, 6.404, Fe
##OXINSTLABEL: 26, 7.058, Fe
##OXINSTLABEL: 26, 0.703, Fe
##OXINSTLABEL: 26, 0.615, Fe
##OXINSTLABEL: 13, 1.487, Al
#SPECTRUM    : Spectral Data Starts Here
-0.20000, 0.0
-0.13000, 0.0
-0.06000, 2.0
0.01000, 7363.0
0.08000, 268.0
0.15000, 106.0
0.22000, 114.0
0.29000, 259.0
0.36000, 102.0
0.43000, 123.0
0.50000, 239.0
0.57000, 205.0
0.64000, 280.0
0.71000, 331.0
0.78000, 409.0
0.85000, 483.0
0.92000, 570.0
0.99000, 670.0
1.06000, 793.0
1.13000, 965.0
1.20000, 1261.0
1.27000, 2589.0
1.34000, 1836.0
1.41000, 8788.0
1.48000, 188352.0
1.55000, 30724.0
1.62000, 692.0
1.69000, 194.0
1.76000, 383.0
1.83000, 132.0
1.90000, 166.0
1.97000, 141.0
2.04000, 167.0
2.11000, 176.0
2.18000, 166.0
2.25000, 188.0
2.32000, 200.0
2.39000, 203.0
2.46000, 219.0
2.53000, 233.0
2.60000, 224.0
2.67000, 221.0
2.74000, 267.0
2.81000, 254.0
2.88000, 319.0
2.95000, 834.0
3.02000, 712.0
3.09000, 280.0
3.16000, 235.0
3.23000, 266.0
3.30000, 248.0
3.37000, 255.0
3.44000, 240.0
3.51000, 242.0
3.58000, 249.0
3.65000, 253.0
3.72000, 256.0
3.79000, 281.0
3.86000, 252.0
3.93000, 258.0
4.00000, 239.0
4.07000, 270.0
4.14000, 264.0
4.21000, 265.0
4.28000, 236.0
4.35000, 251.0
4.42000, 214.0
4.49000, 243.0
4.56000, 248.0
4.63000, 246.0
4.70000, 230.0
4.77000, 236.0
4.84000, 247.0
4.91000, 210.0
4.98000, 236.0
5.05000, 216.0
5.12000, 213.0
5.19000, 206.0
5.26000, 211.0
5.33000, 202.0
5.40000, 221.0
5.47000, 209.0
5.54000, 210.0
5.61000, 199.0
5.68000, 182.0
5.75000, 199.0
5.82000, 259.0
5.89000, 345.0
5.96000, 273.0
6.03000, 193.0
6.10000, 191.0
6.17000, 174.0
6.24000, 185.0
6.31000, 182.0
6.38000, 210.0
6.45000, 218.0
6.52000, 181.0
6.59000, 173.0
6.66000, 146.0
6.73000, 168.0
6.80000, 159.0
6.87000, 151.0
6.94000, 144.0
7.01000, 153.0
7.08000, 151.0
7.15000, 137.0
7.22000, 127.0
7.29000, 141.0
7.36000, 154.0
7.43000, 142.0
7.50000, 146.0
7.57000, 154.0
7.64000, 136.0
7.71000, 130.0
7.78000, 131.0
7.85000, 124.0
7.92000, 129.0
7.99000, 142.0
8.06000, 140.0
8.13000, 139.0
8.20000, 117.0
8.27000, 127.0
8.34000, 115.0
8.41000, 101.0
8.48000, 132.0
8.55000, 122.0
8.62000, 123.0
8.69000, 116.0
8.76000, 121.0
8.83000, 107.0
8.90000, 139.0
8.97000, 105.0
9.04000, 109.0
9.11000, 106.0
9.18000, 103.0
9.25000, 103.0
9.32000, 102.0
9.39000, 105.0
9.46000, 101.0
9.53000, 99.0
9.60000, 108.0
9.67000, 79.0
9.74000, 93.0
9.81000, 92.0
9.88000, 100.0
9.95000, 90.0
10.02000, 96.0
10.09000, 94.0
10.16000, 87.0
10.23000, 92.0
10.30000, 100.0
10.37000, 90.0
10.44000, 82.0
10.51000, 80.0
10.58000, 71.0
10.65000, 74.0
10.72000, 82.0
10.79000, 74.0
10.86000, 83.0
10.93000, 65.0
11.00000, 80.0
11.07000, 66.0
11.14000, 77.0
11.21000, 62.0
11.28000, 73.0
11.35000, 59.0
11.42000, 55.0
11.49000, 65.0
11.56000, 60.0
11.63000, 71.0
11.70000, 67.0
11.77000, 67.0
11.84000, 61.0
11.91000, 69.0
11.98000, 61.0
12.05000, 59.0
12.12000, 57.0
12.19000, 53.0
12.26000, 59.0
12.33000, 54.0
12.40000, 52.0
12.47000, 54.0
12.54000, 52.0
12.61000, 56.0
12.68000, 58.0
12.75000, 52.0
12.82000, 54.0
12.89000, 47.0
12.96000, 44.0
13.03000, 54.0
13.10000, 50.0
13.17000, 45.0
13.24000, 41.0
13.31000, 46.0
13.38000, 42.0
13.45000, 51.0
13.52000, 52.0
13.59000, 33.0
13.66000, 38.0
13.73000, 39.0
13.80000, 35.0
13.87000, 41.0
13.94000, 42.0
14.01000, 39.0
14.08000, 33.0
14.15000, 44.0
14.22000, 37.0
14.29000, 37.0
14.36000, 34.0
14.43000, 37.0
14.50000, 30.0
14.57000, 30.0
14.64000, 42.0
14.71000, 33.0
14.78000, 21.0
14.85000, 35.0
14.92000, 25.0
14.99000, 28.0
15.06000, 34.0
15.13000, 27.0
15.20000, 27.0
15.27000, 27.0
15.34000, 25.0
15.41000, 30.0
15.48000, 33.0
15.55000, 23.0
15.62000, 18.0
15.69000, 26.0
15.76000, 27.0
15.83000, 19.0
15.90000, 22.0
15.97000, 24.0
16.04000, 22.0
16.11000, 21.0
16.18000, 23.0
16.25000, 20.0
16.32000, 24.0
16.39000, 20.0
16.46000, 20.0
16.53000, 17.0
16.60000, 18.0
16.67000, 18.0
16.74000, 24.0
16.81000, 15.0
16.88000, 17.0
16.95000, 18.0
17.02000, 17.0
17.09000, 16.0
17.16000, 14.0
17.23000, 16.0
17.30000, 19.0
17.37000, 15.0
17.44000, 18.0
17.51000, 13.0
17.58000, 15.0
17.65000, 15.0
17.72000, 19.0
17.79000, 18.0
17.86000, 15.0
17.93000, 8.0
18.00000, 12.0
18.07000, 19.0
18.14000, 8.0
18.21000, 13.0
18.28000, 15.0
18.35000, 16.0
18.42000, 15.0
18.49000, 14.0
18.56000, 12.0
18.63000, 10.0
18.70000, 11.0
18.77000, 9.0
18.84000, 10.0
18.91000, 10.0
18.98000, 12.0
19.05000, 10.0
19.12000, 10.0
19.19000, 10.0
19.26000, 5.0
19.33000, 8.0
19.40000, 10.0
19.47000, 8.0
19.54000, 9.0
19.61000, 7.0
19.68000, 11.0
19.75000, 7.0
19.82000, 16.0
19.89000, 8.0
19.96000, 7.0
20.03000, 5.0
20.10000, 5.0
20.17000, 10.0
20.24000, 9.0
20.27000, 5.0
#ENDOFDATA   :

File: Cu_30kV.emsa
#FORMAT      : EMSA/MAS Spectral Data File
#VERSION     : 1.0
#TITLE       : Cu_30kV
#DATE        : 06-SEP-2022
#TIME        : 17:34
#OWNER       :
#NPOINTS     : 2048.0
#NCOLUMNS    : 1.0
#XUNITS      : keV
#YUNITS      : counts
#DATATYPE    : XY
#XPERCHAN    : 0.01
#OFFSET      : -0.2
#SIGNALTYPE  : EDS
#CHOFFSET    : 20.0
#LIVETIME    : 120.0
#REALTIME    : 141.932
#BEAMKV      : 30.0
#MAGCAM      : 1958.0
#XTILTSTGE   : 0.0
#AZIMANGLE   : 0.0
#ELEVANGLE   : 35.0
#XPOSITION mm: 1.6789
#YPOSITION mm: 7.2137
#ZPOSITION mm: 9.9088
##OXINSTPT   : 5
##OXINSTSTROB: 36.28
##OXINSTNDET : 1
##OXINSTELEMS: 8,6,29
##OXINSTLABEL: 8, 0.522, O
##OXINSTLABEL: 6, 0.277, C
##OXINSTLABEL: 29, 8.048, Cu
##OXINSTLABEL: 29, 8.905, Cu
##OXINSTLABEL: 29, 0.930, Cu
##OXINSTLABEL: 29, 0.832, Cu
##OXINSTLABEL: 29, 0.811, Cu
#SPECTRUM    : Spectral Data Starts Here
-0.20000, 0.0
-0.13000, 0.0
-0.06000, 2.0
0.01000, 7685.0
0.08000, 624.0
0.15000, 672.0
0.22000, 9041.0
0.29000, 59565.0
0.36000, 133.0
0.43000, 143.0
0.50000, 3178.0
0.57000, 766.0
0.64000, 147.0
0.71000, 197.0
0.78000, 289.0
0.85000, 336.0
0.92000, 357.0
0.99000, 400.0
1.06000, 454.0
1.13000, 492.0
1.20000, 542.0
1.27000, 566.0
1.34000, 626.0
1.41000, 647.0
1.48000, 691.0
1.55000, 694.0
1.62000, 719.0
1.69000, 934.0
1.76000, 1573.0
1.83000, 873.0
1.90000, 743.0
1.97000, 810.0
2.04000, 824.0
2.11000, 818.0
2.18000, 818.0
2.25000, 875.0
2.32000, 1117.0
2.39000, 860.0
2.46000, 810.0
2.53000, 805.0
2.60000, 803.0
2.67000, 782.0
2.74000, 773.0
2.81000, 745.0
2.88000, 737.0
2.95000, 743.0
3.02000, 722.0
3.09000, 723.0
3.16000, 709.0
3.23000, 689.0
3.30000, 642.0
3.37000, 645.0
3.44000, 679.0
3.51000, 592.0
3.58000, 656.0
3.65000, 579.0
3.72000, 580.0
3.79000, 608.0
3.86000, 569.0
3.93000, 563.0
4.00000, 529.0
4.07000, 554.0
4.14000, 542.0
4.21000, 510.0
4.28000, 505.0
4.35000, 489.0
4.42000, 474.0
4.49000, 494.0
4.56000, 468.0
4.63000, 454.0
4.70000, 434.0
4.77000, 461.0
4.84000, 456.0
4.91000, 450.0
4.98000, 417.0
5.05000, 376.0
5.12000, 387.0
5.19000, 389.0
5.26000, 387.0
5.33000, 382.0
5.40000, 340.0
5.47000, 354.0
5.54000, 351.0
5.61000, 358.0
5.68000, 375.0
5.75000, 347.0
5.82000, 316.0
5.89000, 324.0
5.96000, 314.0
6.03000, 314.0
6.10000, 304.0
6.17000, 309.0
6.24000, 281.0
6.31000, 294.0
6.38000, 267.0
6.45000, 285.0
6.52000, 269.0
6.59000, 252.0
6.66000, 275.0
6.73000, 266.0
6.80000, 251.0
6.87000, 259.0
6.94000, 243.0
7.01000, 239.0
7.08000, 226.0
7.15000, 256.0
7.22000, 223.0
7.29000, 233.0
7.36000, 214.0
7.43000, 218.0
7.50000, 213.0
7.57000, 217.0
7.64000, 198.0
7.71000, 196.0
7.78000, 207.0
7.85000, 231.0
7.92000, 435.0
7.99000, 1197.0
8.06000, 1442.0
8.13000, 626.0
8.20000, 236.0
8.27000, 214.0
8.34000, 186.0
8.41000, 167.0
8.48000, 174.0
8.55000, 164.0
8.62000, 162.0
8.69000, 178.0
8.76000, 177.0
8.83000, 264.0
8.90000, 323.0
8.97000, 254.0
9.04000, 178.0
9.11000, 156.0
9.18000, 132.0
9.25000, 119.0
9.32000, 146.0
9.39000, 153.0
9.46000, 140.0
9.53000, 140.0
9.60000, 114.0
9.67000, 127.0
9.74000, 139.0
9.81000, 114.0
9.88000, 123.0
9.95000, 118.0
10.02000, 115.0
10.09000, 110.0
10.16000, 131.0
10.23000, 124.0
10.30000, 127.0
10.37000, 103.0
10.44000, 113.0
10.51000, 112.0
10.58000, 106.0
10.65000, 104.0
10.72000, 116.0
10.79000, 100.0
10.86000, 109.0
10.93000, 99.0
11.00000, 88.0
11.07000, 97.0
11.14000, 91.0
11.21000, 83.0
11.28000, 85.0
11.35000, 79.0
11.42000, 83.0
11.49000, 89.0
11.56000, 72.0
11.63000, 85.0
11.70000, 82.0
11.77000, 78.0
11.84000, 71.0
11.91000, 75.0
11.98000, 71.0
12.05000, 74.0
12.12000, 78.0
12.19000, 74.0
12.26000, 60.0
12.33000, 62.0
12.40000, 66.0
12.47000, 65.0
12.54000, 62.0
12.61000, 60.0
12.68000, 56.0
12.75000, 59.0
12.82000, 69.0
12.89000, 48.0
12.96000, 57.0
13.03000, 61.0
13.10000, 56.0
13.17000, 60.0
13.24000, 57.0
13.31000, 58.0
13.38000, 54.0
13.45000, 53.0
13.52000, 46.0
13.59000, 46.0
13.66000, 38.0
13.73000, 42.0
13.80000, 51.0
13.87000, 56.0
13.94000, 46.0
14.01000, 43.0
14.08000, 40.0
14.15000, 42.0
14.22000, 38.0
14.29000, 45.0
14.36000, 36.0
14.43000, 43.0
14.50000, 33.0
14.57000, 36.0
14.64000, 38.0
14.71000, 36.0
14.78000, 36.0
14.85000, 33.0
14.92000, 30.0
14.99000, 34.0
15.06000, 39.0
15.13000, 35.0
15.20000, 30.0
15.27000, 28.0
15.34000, 26.0
15.41000, 29.0
15.48000, 31.0
15.55000, 30.0
15.62000, 32.0
15.69000, 27.0
15.76000, 25.0
15.83000, 27.0
15.90000, 26.0
15.97000, 24.0
16.04000, 31.0
16.11000, 23.0
16.18000, 21.0
16.25000, 18.0
16.32000, 19.0
16.39000, 19.0
16.46000, 25.0
16.53000, 19.0
16.60000, 21.0
16.67000, 21.0
16.74000, 17.0
16.81000, 17.0
16.88000, 14.0
16.95000, 25.0
17.02000, 22.0
17.09000, 11.0
17.16000, 18.0
17.23000, 22.0
17.30000, 18.0
17.37000, 22.0
17.44000, 16.0
17.51000, 10.0
17.58000, 13.0
17.65000, 11.0
17.72000, 14.0
17.79000, 17.0
17.86000, 16.0
17.93000, 10.0
18.00000, 15.0
18.07000, 10.0
18.14000, 11.0
18.21000, 7.0
18.28000, 15.0
18.35000, 9.0
18.42000, 11.0
18.49000, 13.0
18.56000, 10.0
18.63000, 11.0
18.70000, 11.0
18.77000, 11.0
18.84000, 8.0
18.91000, 10.0
18.98000, 6.0
19.05000, 5.0
19.12000, 14.0
19.19000, 10.0
19.26000, 10.0
19.33000, 9.0
19.40000, 8.0
19.47000, 6.0
19.54000, 8.0
19.61000, 9.0
19.68000, 8.0
19.75000, 8.0
19.82000, 6.0
19.89000, 6.0
19.96000, 7.0
20.03000, 5.0
20.10000, 6.0
20.17000, 9.0
20.24000, 6.0
20.27000, 6.0
#ENDOFDATA   :

File: Mo_30kV.emsa
#FORMAT      : EMSA/MAS Spectral Data File
#VERSION     : 1.0
#TITLE       : Mo_30kV
#DATE        : 06-SEP-2022
#TIME        : 16:44
#OWNER       :
#NPOINTS     : 2048.0
#NCOLUMNS    : 1.0
#XUNITS      : keV
#YUNITS      : counts
#DATATYPE    : XY
#XPERCHAN    : 0.01
#OFFSET      : -0.2
#SIGNALTYPE  : EDS
#CHOFFSET    : 20.0
#LIVETIME    : 44.0
#REALTIME    : 68.4928
#BEAMKV      : 30.0
#MAGCAM      : 9788.0
#XTILTSTGE   : 0.0
#AZIMANGLE   : 0.0
#ELEVANGLE   : 35.0
#XPOSITION mm: -7.0542
#YPOSITION mm: -20.8305
#ZPOSITION mm: 9.9088
##OXINSTPT   : 5
##OXINSTSTROB: 36.90
##OXINSTNDET : 1
##OXINSTELEMS: 8,12,42
##OXINSTLABEL: 8, 0.522, O
##OXINSTLABEL: 12, 1.254, Mg
##OXINSTLABEL: 42, 17.480, Mo
##OXINSTLABEL: 42, 19.609, Mo
##OXINSTLABEL: 42, 19.965, Mo
##OXINSTLABEL: 42, 2.293, Mo
##OXINSTLABEL: 42, 2.395, Mo
##OXINSTLABEL: 42, 2.120, Mo
##OXINSTLABEL: 42, 2.831, Mo
##OXINSTLABEL: 42, 2.016, Mo
##OXINSTLABEL: 42, 0.193, Mo
#SPECTRUM    : Spectral Data Starts Here
-0.20000, 0.0
-0.13000, 0.0
-0.06000, 1.0
0.01000, 2588.0
0.08000, 202.0
0.15000, 1245.0
0.22000, 1450.0
0.29000, 517.0
0.36000, 129.0
0.43000, 152.0
0.50000, 299.0
0.57000, 956.0
0.64000, 531.0
0.71000, 348.0
0.78000, 308.0
0.85000, 324.0
0.92000, 363.0
0.99000, 418.0
1.06000, 453.0
1.13000, 515.0
1.20000, 585.0
1.27000, 629.0
1.34000, 669.0
1.41000, 746.0
1.48000, 759.0
1.55000, 758.0
1.62000, 814.0
1.69000, 827.0
1.76000, 975.0
1.83000, 862.0
1.90000, 856.0
1.97000, 1465.0
2.04000, 2314.0
2.11000, 1564.0
2.18000, 2100.0
2.25000, 19814.0
2.32000, 38566.0
2.39000, 20216.0
2.46000, 8877.0
2.53000, 2727.0
2.60000, 828.0
2.67000, 482.0
2.74000, 328.0
2.81000, 502.0
2.88000, 431.0
2.95000, 294.0
3.02000, 302.0
3.09000, 326.0
3.16000, 301.0
3.23000, 331.0
3.30000, 362.0
3.37000, 341.0
3.44000, 379.0
3.51000, 352.0
3.58000, 364.0
3.65000, 379.0
3.72000, 373.0
3.79000, 374.0
3.86000, 376.0
3.93000, 391.0
4.00000, 374.0
4.07000, 363.0
4.14000, 427.0
4.21000, 404.0
4.28000, 405.0
4.35000, 411.0
4.42000, 413.0
4.49000, 405.0
4.56000, 536.0
4.63000, 587.0
4.70000, 518.0
4.77000, 505.0
4.84000, 443.0
4.91000, 416.0
4.98000, 401.0
5.05000, 398.0
5.12000, 401.0
5.19000, 395.0
5.26000, 397.0
5.33000, 379.0
5.40000, 414.0
5.47000, 377.0
5.54000, 399.0
5.61000, 377.0
5.68000, 415.0
5.75000, 359.0
5.82000, 380.0
5.89000, 376.0
5.96000, 368.0
6.03000, 385.0
6.10000, 380.0
6.17000, 344.0
6.24000, 355.0
6.31000, 375.0
6.38000, 379.0
6.45000, 340.0
6.52000, 361.0
6.59000, 372.0
6.66000, 345.0
6.73000, 337.0
6.80000, 341.0
6.87000, 333.0
6.94000, 354.0
7.01000, 338.0
7.08000, 346.0
7.15000, 324.0
7.22000, 309.0
7.29000, 330.0
7.36000, 316.0
7.43000, 331.0
7.50000, 340.0
7.57000, 331.0
7.64000, 302.0
7.71000, 318.0
7.78000, 308.0
7.85000, 293.0
7.92000, 302.0
7.99000, 296.0
8.06000, 285.0
8.13000, 289.0
8.20000, 304.0
8.27000, 288.0
8.34000, 282.0
8.41000, 257.0
8.48000, 303.0
8.55000, 281.0
8.62000, 265.0
8.69000, 264.0
8.76000, 284.0
8.83000, 273.0
8.90000, 278.0
8.97000, 268.0
9.04000, 274.0
9.11000, 262.0
9.18000, 268.0
9.25000, 264.0
9.32000, 241.0
9.39000, 265.0
9.46000, 249.0
9.53000, 255.0
9.60000, 239.0
9.67000, 244.0
9.74000, 232.0
9.81000, 240.0
9.88000, 227.0
9.95000, 244.0
10.02000, 256.0
10.09000, 210.0
10.16000, 221.0
10.23000, 212.0
10.30000, 222.0
10.37000, 197.0
10.44000, 217.0
10.51000, 217.0
10.58000, 217.0
10.65000, 203.0
10.72000, 208.0
10.79000, 211.0
10.86000, 205.0
10.93000, 203.0
11.00000, 198.0
11.07000, 202.0
11.14000, 205.0
11.21000, 213.0
11.28000, 175.0
11.35000, 170.0
11.42000, 177.0
11.49000, 175.0
11.56000, 169.0
11.63000, 173.0
11.70000, 180.0
11.77000, 158.0
11.84000, 170.0
11.91000, 186.0
11.98000, 175.0
12.05000, 171.0
12.12000, 161.0
12.19000, 171.0
12.26000, 153.0
12.33000, 169.0
12.40000, 171.0
12.47000, 134.0
12.54000, 134.0
12.61000, 158.0
12.68000, 140.0
12.75000, 136.0
12.82000, 150.0
12.89000, 148.0
12.96000, 146.0
13.03000, 146.0
13.10000, 131.0
13.17000, 128.0
13.24000, 125.0
13.31000, 138.0
13.38000, 134.0
13.45000, 131.0
13.52000, 122.0
13.59000, 117.0
13.66000, 120.0
13.73000, 117.0
13.80000, 121.0
13.87000, 116.0
13.94000, 119.0
14.01000, 108.0
14.08000, 105.0
14.15000, 106.0
14.22000, 97.0
14.29000, 95.0
14.36000, 110.0
14.43000, 110.0
14.50000, 90.0
14.57000, 98.0
14.64000, 96.0
14.71000, 98.0
14.78000, 88.0
14.85000, 93.0
14.92000, 75.0
14.99000, 90.0
15.06000, 96.0
15.13000, 105.0
15.20000, 91.0
15.27000, 86.0
15.34000, 85.0
15.41000, 92.0
15.48000, 85.0
15.55000, 75.0
15.62000, 82.0
15.69000, 78.0
15.76000, 72.0
15.83000, 68.0
15.90000, 73.0
15.97000, 77.0
16.04000, 72.0
16.11000, 77.0
16.18000, 67.0
16.25000, 65.0
16.32000, 58.0
16.39000, 61.0
16.46000, 64.0
16.53000, 51.0
16.60000, 77.0
16.67000, 65.0
16.74000, 67.0
16.81000, 51.0
16.88000, 59.0
16.95000, 74.0
17.02000, 54.0
17.09000, 70.0
17.16000, 98.0
17.23000, 224.0
17.30000, 465.0
17.37000, 745.0
17.44000, 848.0
17.51000, 629.0
17.58000, 282.0
17.65000, 110.0
17.72000, 63.0
17.79000, 47.0
17.86000, 48.0
17.93000, 52.0
18.00000, 50.0
18.07000, 39.0
18.14000, 49.0
18.21000, 44.0
18.28000, 46.0
18.35000, 45.0
18.42000, 42.0
18.49000, 35.0
18.56000, 31.0
18.63000, 33.0
18.70000, 33.0
18.77000, 37.0
18.84000, 38.0
18.91000, 30.0
18.98000, 41.0
19.05000, 40.0
19.12000, 42.0
19.19000, 35.0
19.26000, 34.0
19.33000, 42.0
19.40000, 52.0
19.47000, 106.0
19.54000, 131.0
19.61000, 144.0
19.68000, 110.0
19.75000, 64.0
19.82000, 43.0
19.89000, 44.0
19.96000, 52.0
20.03000, 44.0
20.10000, 27.0
20.17000, 25.0
20.24000, 24.0
20.27000, 28.0
#ENDOFDATA   :

File: NW_10kV.emsa
#FORMAT      : EMSA/MAS Spectral Data File
#VERSION     : 1.0
#TITLE       : NW_10kV
#DATE        : 06-SEP-2022
#TIME        : 16:05
#OWNER       :
#NPOINTS     : 2048.0
#NCOLUMNS    : 1.0
#XUNITS      : keV
#YUNITS      : counts
#DATATYPE    : XY
#XPERCHAN    : 0.01
#OFFSET      : -0.2
#SIGNALTYPE  : EDS
#CHOFFSET    : 20.0
#LIVETIME    : 120.0
#REALTIME    : 147.437
#BEAMKV      : 10.0
#MAGCAM      : 68514.0
#XTILTSTGE   : 0.0
#AZIMANGLE   : 0.0
#ELEVANGLE   : 35.0
#XPOSITION mm: -4.8510
#YPOSITION mm: -16.6868
#ZPOSITION mm: 9.9088
##OXINSTPT   : 5
##OXINSTSTROB: 36.25
##OXINSTNDET : 1
##OXINSTELEMS: 25,50,8,12
##OXINSTLABEL: 25, 5.899, Mn
##OXINSTLABEL: 25, 6.490, Mn
##OXINSTLABEL: 25, 0.636, Mn
##OXINSTLABEL: 25, 0.556, Mn
##OXINSTLABEL: 50, 3.444, Sn
##OXINSTLABEL: 50, 3.666, Sn
##OXINSTLABEL: 50, 3.905, Sn
##OXINSTLABEL: 50, 3.272, Sn
##OXINSTLABEL: 50, 4.131, Sn
##OXINSTLABEL: 50, 4.377, Sn
##OXINSTLABEL: 50, 3.045, Sn
##OXINSTLABEL: 50, 0.397, Sn
##OXINSTLABEL: 8, 0.522, O
##OXINSTLABEL: 12, 1.254, Mg
#SPECTRUM    : Spectral Data Starts Here
-0.20000, 0.0
-0.13000, 0.0
-0.06000, 1.0
0.01000, 7420.0
0.08000, 560.0
0.15000, 1266.0
0.22000, 3092.0
0.29000, 10028.0
0.36000, 1594.0
0.43000, 2043.0
0.50000, 4465.0
0.57000, 2169.0
0.64000, 2035.0
0.71000, 2083.0
0.78000, 2186.0
0.85000, 3268.0
0.92000, 5979.0
0.99000, 4733.0
1.06000, 15744.0
1.13000, 39992.0
1.20000, 3969.0
1.27000, 32687.0
1.34000, 18181.0
1.41000, 2081.0
1.48000, 1225.0
1.55000, 1184.0
1.62000, 1052.0
1.69000, 1146.0
1.76000, 1259.0
1.83000, 1002.0
1.90000, 891.0
1.97000, 929.0
2.04000, 1035.0
2.11000, 835.0
2.18000, 870.0
2.25000, 1023.0
2.32000, 1167.0
2.39000, 1024.0
2.46000, 819.0
2.53000, 747.0
2.60000, 714.0
2.67000, 683.0
2.74000, 667.0
2.81000, 632.0
2.88000, 592.0
2.95000, 594.0
3.02000, 595.0
3.09000, 561.0
3.16000, 558.0
3.23000, 537.0
3.30000, 547.0
3.37000, 481.0
3.44000, 519.0
3.51000, 510.0
3.58000, 903.0
3.65000, 871.0
3.72000, 492.0
3.79000, 543.0
3.86000, 667.0
3.93000, 527.0
4.00000, 441.0
4.07000, 453.0
4.14000, 446.0
4.21000, 383.0
4.28000, 398.0
4.35000, 402.0
4.42000, 395.0
4.49000, 368.0
4.56000, 369.0
4.63000, 337.0
4.70000, 342.0
4.77000, 335.0
4.84000, 313.0
4.91000, 334.0
4.98000, 317.0
5.05000, 313.0
5.12000, 293.0
5.19000, 312.0
5.26000, 290.0
5.33000, 259.0
5.40000, 274.0
5.47000, 272.0
5.54000, 251.0
5.61000, 276.0
5.68000, 267.0
5.75000, 270.0
5.82000, 261.0
5.89000, 247.0
5.96000, 260.0
6.03000, 249.0
6.10000, 253.0
6.17000, 211.0
6.24000, 221.0
6.31000, 235.0
6.38000, 223.0
6.45000, 215.0
6.52000, 217.0
6.59000, 214.0
6.66000, 208.0
6.73000, 202.0
6.80000, 203.0
6.87000, 208.0
6.94000, 186.0
7.01000, 206.0
7.08000, 194.0
7.15000, 185.0
7.22000, 173.0
7.29000, 177.0
7.36000, 171.0
7.43000, 181.0
7.50000, 194.0
7.57000, 174.0
7.64000, 182.0
7.71000, 187.0
7.78000, 178.0
7.85000, 148.0
7.92000, 151.0
7.99000, 183.0
8.06000, 189.0
8.13000, 173.0
8.20000, 163.0
8.27000, 153.0
8.34000, 136.0
8.41000, 143.0
8.48000, 130.0
8.55000, 141.0
8.62000, 134.0
8.69000, 129.0
8.76000, 134.0
8.83000, 146.0
8.90000, 140.0
8.97000, 124.0
9.04000, 105.0
9.11000, 104.0
9.18000, 104.0
9.25000, 106.0
9.32000, 91.0
9.39000, 92.0
9.46000, 90.0
9.53000, 81.0
9.60000, 76.0
9.67000, 78.0
9.74000, 55.0
9.81000, 48.0
9.88000, 39.0
9.95000, 25.0
10.02000, 8.0
10.09000, 3.0
10.16000, 2.0
10.23000, 1.0
10.30000, 1.0
10.37000, 2.0
10.44000, 1.0
10.51000, 1.0
10.58000, 0.0
10.65000, 1.0
10.72000, 0.0
10.79000, 1.0
10.86000, 2.0
10.93000, 0.0
11.00000, 1.0
11.07000, 0.0
11.14000, 0.0
11.21000, 1.0
11.28000, 1.0
11.35000, 0.0
11.42000, 0.0
11.49000, 0.0
11.56000, 0.0
11.63000, 1.0
11.70000, 0.0
11.77000, 0.0
11.84000, 0.0
11.91000, 0.0
11.98000, 1.0
12.05000, 0.0
12.12000, 0.0
12.19000, 0.0
12.26000, 0.0
12.33000, 1.0
12.40000, 1.0
12.47000, 0.0
12.54000, 0.0
12.61000, 0.0
12.68000, 0.0
12.75000, 0.0
12.82000, 0.0
12.89000, 0.0
12.96000, 0.0
13.03000, 0.0
13.10000, 0.0
13.17000, 0.0
13.24000, 0.0
13.31000, 0.0
13.38000, 0.0
13.45000, 0.0
13.52000, 0.0
13.59000, 0.0
13.66000, 0.0
13.73000, 0.0
13.80000, 0.0
13.87000, 0.0
13.94000, 1.0
14.01000, 0.0
14.08000, 0.0
14.15000, 0.0
14.22000, 0.0
14.29000, 0.0
14.36000, 0.0
14.43000, 0.0
14.50000, 0.0
14.57000, 1.0
14.64000, 0.0
14.71000, 0.0
14.78000, 0.0
14.85000, 0.0
14.92000, 2.0
14.99000, 0.0
15.06000, 0.0
15.13000, 0.0
15.20000, 0.0
15.27000, 0.0
15.34000, 0.0
15.41000, 0.0
15.48000, 0.0
15.55000, 1.0
15.62000, 0.0
15.69000, 0.0
15.76000, 0.0
15.83000, 0.0
15.90000, 0.0
15.97000, 0.0
16.04000, 0.0
16.11000, 0.0
16.18000, 0.0
16.25000, 1.0
16.32000, 0.0
16.39000, 0.0
16.46000, 0.0
16.53000, 0.0
16.60000, 0.0
16.67000, 0.0
16.74000, 0.0
16.81000, 0.0
16.88000, 0.0
16.95000, 0.0
17.02000, 0.0
17.09000, 0.0
17.16000, 0.0
17.23000, 0.0
17.30000, 0.0
17.37000, 1.0
17.44000, 0.0
17.51000, 0.0
17.58000, 0.0
17.65000, 0.0
17.72000, 0.0
17.79000, 0.0
17.86000, 0.0
17.93000, 0.0
18.00000, 0.0
18.07000, 0.0
18.14000, 0.0
18.21000, 0.0
18.28000, 0.0
18.35000, 0.0
18.42000, 0.0
18.49000, 0.0
18.56000, 0.0
18.63000, 0.0
18.70000, 0.0
18.77000, 0.0
18.84000, 0.0
18.91000, 0.0
18.98000, 0.0
19.05000, 0.0
19.12000, 0.0
19.19000, 0.0
19.26000, 0.0
19.33000, 0.0
19.40000, 0.0
19.47000, 0.0
19.54000, 0.0
19.61000, 0.0
19.68000, 0.0
19.75000, 0.0
19.82000, 0.0
19.89000, 0.0
19.96000, 0.0
20.03000, 0.0
20.10000, 0.0
20.17000, 0.0
20.24000, 0.0
20.27000, 0.0
#ENDOFDATA   :